user_id,session_timestamp,trial_number,left_image,right_image,user_choice,correct_answer,is_correct,response_time_ms,timestamp
19ddb79b-c346-4a22-b1a6-7b1f0c03efcf,2025-11-12T22:07:37.420846,1,dog2.jpg,cat4.jpg,left,left,TRUE,8945,2025-11-12T22:07:46.382Z
19ddb79b-c346-4a22-b1a6-7b1f0c03efcf,2025-11-12T22:07:37.420846,2,dog4.jpg,cat2.jpg,right,left,FALSE,816,2025-11-12T22:07:54.540Z
19ddb79b-c346-4a22-b1a6-7b1f0c03efcf,2025-11-12T22:07:37.420846,3,dog3.jpg,cat3.jpg,right,left,FALSE,3962,2025-11-12T22:08:00.205Z
19ddb79b-c346-4a22-b1a6-7b1f0c03efcf,2025-11-12T22:07:37.420846,4,dog5.jpg,cat1.jpg,right,left,FALSE,594,2025-11-12T22:08:00.978Z
19ddb79b-c346-4a22-b1a6-7b1f0c03efcf,2025-11-12T22:07:37.420846,5,cat5.jpg,dog1.jpg,right,right,TRUE,559,2025-11-12T22:08:01.539Z
167cff0d-1e0f-435c-9458-5d6479aad03c,2025-11-12T22:10:30.177585,1,dog4.jpg,cat3.jpg,right,left,FALSE,880,2025-11-12T22:10:31.070Z
167cff0d-1e0f-435c-9458-5d6479aad03c,2025-11-12T22:10:30.177585,2,dog3.jpg,cat2.jpg,right,left,FALSE,474,2025-11-12T22:10:32.671Z
167cff0d-1e0f-435c-9458-5d6479aad03c,2025-11-12T22:10:30.177585,3,cat1.jpg,dog1.jpg,right,right,TRUE,399,2025-11-12T22:10:33.246Z
167cff0d-1e0f-435c-9458-5d6479aad03c,2025-11-12T22:10:30.177585,4,cat5.jpg,dog2.jpg,right,right,TRUE,368,2025-11-12T22:10:33.805Z
167cff0d-1e0f-435c-9458-5d6479aad03c,2025-11-12T22:10:30.177585,5,dog5.jpg,cat4.jpg,right,left,FALSE,520,2025-11-12T22:10:34.493Z
001,2025-11-12T23:22:51.131974,1,cat1.jpg,dog4.jpg,right,right,TRUE,1415,2025-11-12T23:22:52.552Z
001,2025-11-12T23:22:51.131974,2,cat3.jpg,dog3.jpg,right,right,TRUE,437,2025-11-12T23:22:54.688Z
001,2025-11-12T23:22:51.131974,3,cat5.jpg,dog2.jpg,right,right,TRUE,931,2025-11-12T23:22:55.869Z
001,2025-11-12T23:22:51.131974,4,dog1.jpg,cat4.jpg,left,left,TRUE,683,2025-11-12T23:22:56.853Z
001,2025-11-12T23:22:51.131974,5,cat2.jpg,dog5.jpg,right,right,TRUE,766,2025-11-12T23:22:57.790Z
001,2025-11-12T23:25:48.899509,1,cat3.jpg,dog1.jpg,right,right,TRUE,925,2025-11-12T23:25:49.830Z
001,2025-11-12T23:25:48.899509,2,cat2.jpg,dog3.jpg,right,right,TRUE,1185,2025-11-12T23:25:51.987Z
001,2025-11-12T23:25:48.899509,3,cat1.jpg,dog5.jpg,right,right,TRUE,852,2025-11-12T23:25:52.923Z
001,2025-11-12T23:25:48.899509,4,dog4.jpg,cat5.jpg,left,left,TRUE,616,2025-11-12T23:25:53.621Z
001,2025-11-12T23:25:48.899509,5,cat4.jpg,dog2.jpg,right,right,TRUE,890,2025-11-12T23:25:54.585Z
001,2025-11-12T23:28:28.334541,1,dog3.jpg,cat2.jpg,left,left,TRUE,2096,2025-11-12T23:28:30.471Z
001,2025-11-12T23:28:28.334541,2,cat3.jpg,dog5.jpg,right,right,TRUE,637,2025-11-12T23:28:32.023Z
001,2025-11-12T23:28:28.334541,3,cat1.jpg,dog1.jpg,right,right,TRUE,748,2025-11-12T23:28:32.837Z
001,2025-11-12T23:28:28.334541,4,dog4.jpg,cat5.jpg,left,left,TRUE,736,2025-11-12T23:28:33.740Z
001,2025-11-12T23:28:28.334541,5,cat4.jpg,dog2.jpg,right,right,TRUE,745,2025-11-12T23:28:34.603Z
001,2025-11-12T23:28:54.541380,1,cat4.jpg,dog1.jpg,right,right,TRUE,766,2025-11-12T23:28:55.343Z
001,2025-11-12T23:28:54.541380,2,cat5.jpg,dog4.jpg,right,right,TRUE,815,2025-11-12T23:28:56.473Z
001,2025-11-12T23:28:54.541380,3,dog3.jpg,cat2.jpg,left,left,TRUE,766,2025-11-12T23:28:57.373Z
001,2025-11-12T23:28:54.541380,4,dog2.jpg,cat1.jpg,left,left,TRUE,911,2025-11-12T23:28:58.470Z
001,2025-11-12T23:28:54.541380,5,cat3.jpg,dog5.jpg,right,right,TRUE,717,2025-11-12T23:28:59.325Z
001,2025-11-12T23:34:18.105041,1,dog1.jpg,cat3.jpg,left,left,TRUE,915,2025-11-12T23:34:19.040Z
001,2025-11-12T23:34:18.105041,2,cat1.jpg,dog5.jpg,right,right,TRUE,724,2025-11-12T23:34:20.040Z
001,2025-11-12T23:34:18.105041,3,cat2.jpg,dog3.jpg,right,right,TRUE,594,2025-11-12T23:34:20.708Z
001,2025-11-12T23:34:18.105041,4,dog2.jpg,cat5.jpg,left,left,TRUE,796,2025-11-12T23:34:21.642Z
001,2025-11-12T23:34:18.105041,5,dog4.jpg,cat4.jpg,left,left,TRUE,904,2025-11-12T23:34:22.593Z
001,2025-11-12T23:38:42.842847,1,dog1.jpg,cat4.jpg,left,left,TRUE,750,2025-11-12T23:38:43.602Z
001,2025-11-12T23:38:42.842847,2,dog3.jpg,cat5.jpg,left,left,TRUE,723,2025-11-12T23:38:45.775Z
001,2025-11-12T23:38:42.842847,3,dog5.jpg,cat1.jpg,left,left,TRUE,572,2025-11-12T23:38:46.487Z
001,2025-11-12T23:38:42.842847,4,cat2.jpg,dog4.jpg,right,right,TRUE,863,2025-11-12T23:38:47.485Z
001,2025-11-12T23:38:42.842847,5,cat3.jpg,dog2.jpg,right,right,TRUE,796,2025-11-12T23:38:48.338Z
